{
  "resourceType": "Bundle",
  "type": "transaction",
  "id": "bundle-example-HLA-report",
  "entry": [
    {
      "fullUrl": "urn:uuid:8200dab6-18a2-4550-b913-a7db480c0804",
      "resource": {
        "resourceType": "Sequence",
        "text": {
          "div": "<div xmlns=\"http://hl7.org/fhir\">\n                        <pre>&quot;HLA-A*01:01:01:01, exon 2&quot;</pre>\n                    </div>"
        },
        "type": "DNA",
        "coordinateSystem": 0,
        "patient": {
          "reference": "Patient/119",
          "display": "Mary Chalmers"
        },
        "specimen": {
          "reference": "Specimen/120",
          "display": "buccal swab from Mary Chalmers"
        },
        "referenceSeq": {
          "referenceSeqId": {
            "coding": [
              {
                "system": "http://www.ebi.ac.uk/ipd/imgt/hla/",
                "version": "3.23",
                "code": "HLA00001"
              }
            ],
            "text": "HLA-A*01:01:01:01"
          },
          "windowStart": 503,
          "windowEnd": 773
        },
        "observedSeq": ""
      },
      "request": {
        "method": "POST",
        "url": "Sequence"
      }
    },
    {
      "fullUrl": "urn:uuid:7c393185-f15c-45bc-a714-c0fdbea32675",
      "resource": {
        "resourceType": "Sequence",
        "text": {
          "div": "<div xmlns=\"http://hl7.org/fhir\">\n                        <pre>&quot;HLA-A*01:01:01:01, exon 3&quot;</pre>\n                    </div>"
        },
        "type": "DNA",
        "coordinateSystem": 0,
        "patient": {
          "reference": "Patient/119",
          "display": "Mary Chalmers"
        },
        "specimen": {
          "reference": "Specimen/120",
          "display": "buccal swab from Mary Chalmers"
        },
        "referenceSeq": {
          "referenceSeqId": {
            "coding": [
              {
                "system": "http://www.ebi.ac.uk/ipd/imgt/hla/",
                "version": "3.23",
                "code": "HLA00001"
              }
            ],
            "text": "HLA-A*01:01:01:01"
          },
          "windowStart": 1014,
          "windowEnd": 1290
        },
        "observedSeq": ""
      },
      "request": {
        "method": "POST",
        "url": "Sequence"
      }
    },
    {
      "fullUrl": "urn:uuid:65c85f14-c3a0-4b72-818f-820e04fcc621",
      "resource": {
        "resourceType": "Sequence",
        "text": {
          "div": "<div xmlns=\"http://hl7.org/fhir\">\n                        <pre>&quot;HLA-A*01:02, exon 2&quot;</pre>\n                    </div>"
        },
        "type": "DNA",
        "coordinateSystem": 0,
        "patient": {
          "reference": "Patient/119",
          "display": "Mary Chalmers"
        },
        "specimen": {
          "reference": "Specimen/120",
          "display": "buccal swab from Mary Chalmers"
        },
        "referenceSeq": {
          "referenceSeqId": {
            "coding": [
              {
                "system": "http://www.ebi.ac.uk/ipd/imgt/hla/",
                "version": "3.23",
                "code": "HLA00002"
              }
            ],
            "text": "HLA-A*01:02"
          },
          "windowStart": 503,
          "windowEnd": 773
        },
        "observedSeq": ""
      },
      "request": {
        "method": "POST",
        "url": "Sequence"
      }
    },
    {
      "fullUrl": "urn:uuid:fbba9fe7-0ece-4ec1-9233-a437a8d242a0",
      "resource": {
        "resourceType": "Sequence",
        "text": {
          "div": "<div xmlns=\"http://hl7.org/fhir\">\n                        <pre>&quot;HLA-A*01:02, exon 3&quot;</pre>\n                    </div>"
        },
        "type": "DNA",
        "coordinateSystem": 0,
        "patient": {
          "reference": "Patient/119",
          "display": "Mary Chalmers"
        },
        "specimen": {
          "reference": "Specimen/120",
          "display": "buccal swab from Mary Chalmers"
        },
        "referenceSeq": {
          "referenceSeqId": {
            "coding": [
              {
                "system": "http://www.ebi.ac.uk/ipd/imgt/hla/",
                "version": "3.23",
                "code": "HLA00002"
              }
            ],
            "text": "HLA-A*01:02"
          },
          "windowStart": 1014,
          "windowEnd": 1290
        },
        "observedSeq": ""
      },
      "request": {
        "method": "POST",
        "url": "Sequence"
      }
    },
    {
      "fullUrl": "urn:uuid:cbabf93e-1b4b-46f2-ba1e-d84862670670",
      "resource": {
        "resourceType": "Sequence",
        "text": {
          "div": "<div xmlns=\"http://hl7.org/fhir\">\n                        <pre>&quot;HLA-B*15:01:01:01, exon 2&quot;</pre>\n                    </div>"
        },
        "type": "DNA",
        "coordinateSystem": 0,
        "patient": {
          "reference": "Patient/119",
          "display": "Mary Chalmers"
        },
        "specimen": {
          "reference": "Specimen/120",
          "display": "buccal swab from Mary Chalmers"
        },
        "referenceSeq": {
          "referenceSeqId": {
            "coding": [
              {
                "system": "http://www.ebi.ac.uk/ipd/imgt/hla/",
                "version": "3.23",
                "code": "HLA00162"
              }
            ],
            "text": "HLA-B*15:01:01:01"
          },
          "windowStart": 486,
          "windowEnd": 756
        },
        "observedSeq": ""
      },
      "request": {
        "method": "POST",
        "url": "Sequence"
      }
    },
    {
      "fullUrl": "urn:uuid:c233ad3d-1572-48d6-93da-0a583535e138",
      "resource": {
        "resourceType": "Sequence",
        "text": {
          "div": "<div xmlns=\"http://hl7.org/fhir\">\n                        <pre>&quot;HLA-B*15:01:01:01, exon 3&quot;</pre>\n                    </div>"
        },
        "type": "DNA",
        "coordinateSystem": 0,
        "patient": {
          "reference": "Patient/119",
          "display": "Mary Chalmers"
        },
        "specimen": {
          "reference": "Specimen/120",
          "display": "buccal swab from Mary Chalmers"
        },
        "referenceSeq": {
          "referenceSeqId": {
            "coding": [
              {
                "system": "http://www.ebi.ac.uk/ipd/imgt/hla/",
                "version": "3.23",
                "code": "HLA00162"
              }
            ],
            "text": "HLA-B*15:01:01:01"
          },
          "windowStart": 1001,
          "windowEnd": 1277
        },
        "observedSeq": ""
      },
      "request": {
        "method": "POST",
        "url": "Sequence"
      }
    },
    {
      "fullUrl": "urn:uuid:05fa52d7-5c67-460a-8722-d3460b24d6fe",
      "resource": {
        "resourceType": "Sequence",
        "text": {
          "div": "<div xmlns=\"http://hl7.org/fhir\">\n                        <pre>&quot;HLA-B*57:01:01, exon 2&quot;</pre>\n                    </div>"
        },
        "type": "DNA",
        "coordinateSystem": 0,
        "patient": {
          "reference": "Patient/119",
          "display": "Mary Chalmers"
        },
        "specimen": {
          "reference": "Specimen/120",
          "display": "buccal swab from Mary Chalmers"
        },
        "referenceSeq": {
          "referenceSeqId": {
            "coding": [
              {
                "system": "http://www.ebi.ac.uk/ipd/imgt/hla/",
                "version": "3.23",
                "code": "HLA00381"
              }
            ],
            "text": "HLA-B*57:01:01"
          },
          "windowStart": 485,
          "windowEnd": 755
        },
        "observedSeq": ""
      },
      "request": {
        "method": "POST",
        "url": "Sequence"
      }
    },
    {
      "fullUrl": "urn:uuid:db69e549-6267-4777-b4b9-8813f3329309",
      "resource": {
        "resourceType": "Sequence",
        "text": {
          "div": "<div xmlns=\"http://hl7.org/fhir\">\n                        <pre>&quot;HLA-B*57:01:01, exon 3&quot;</pre>\n                    </div>"
        },
        "type": "DNA",
        "coordinateSystem": 0,
        "patient": {
          "reference": "Patient/119",
          "display": "Mary Chalmers"
        },
        "specimen": {
          "reference": "Specimen/120",
          "display": "buccal swab from Mary Chalmers"
        },
        "referenceSeq": {
          "referenceSeqId": {
            "coding": [
              {
                "system": "http://www.ebi.ac.uk/ipd/imgt/hla/",
                "version": "3.23",
                "code": "HLA00381"
              }
            ],
            "text": "HLA-B*57:01:01"
          },
          "windowStart": 1001,
          "windowEnd": 1277
        },
        "observedSeq": ""
      },
      "request": {
        "method": "POST",
        "url": "Sequence"
      }
    },
    {
      "fullUrl": "urn:uuid:bb55c2bc-5ad2-4bc1-8ff3-c407d06b12d0",
      "resource": {
        "resourceType": "Sequence",
        "text": {
          "div": "<div xmlns=\"http://hl7.org/fhir\">\n                        <pre>&quot;HLA-C*01:02:01, exon 2&quot;</pre>\n                    </div>"
        },
        "type": "DNA",
        "coordinateSystem": 0,
        "patient": {
          "reference": "Patient/119",
          "display": "Mary Chalmers"
        },
        "specimen": {
          "reference": "Specimen/120",
          "display": "buccal swab from Mary Chalmers"
        },
        "referenceSeq": {
          "referenceSeqId": {
            "coding": [
              {
                "system": "http://www.ebi.ac.uk/ipd/imgt/hla/",
                "version": "3.23",
                "code": "HLA00401"
              }
            ],
            "text": "HLA-C*01:02:01"
          },
          "windowStart": 486,
          "windowEnd": 756
        },
        "observedSeq": ""
      },
      "request": {
        "method": "POST",
        "url": "Sequence"
      }
    },
    {
      "fullUrl": "urn:uuid:46938bb2-0486-4e87-bfd3-89aab2d5e22f",
      "resource": {
        "resourceType": "Sequence",
        "text": {
          "div": "<div xmlns=\"http://hl7.org/fhir\">\n                        <pre>&quot;HLA-C*01:02:01, exon 3&quot;</pre>\n                    </div>"
        },
        "type": "DNA",
        "coordinateSystem": 0,
        "patient": {
          "reference": "Patient/119",
          "display": "Mary Chalmers"
        },
        "specimen": {
          "reference": "Specimen/120",
          "display": "buccal swab from Mary Chalmers"
        },
        "referenceSeq": {
          "referenceSeqId": {
            "coding": [
              {
                "system": "http://www.ebi.ac.uk/ipd/imgt/hla/",
                "version": "3.23",
                "code": "HLA00401"
              }
            ],
            "text": "HLA-C*01:02:01"
          },
          "windowStart": 1002,
          "windowEnd": 1278
        },
        "observedSeq": ""
      },
      "request": {
        "method": "POST",
        "url": "Sequence"
      }
    },
    {
      "fullUrl": "urn:uuid:2ae2ff34-279e-43c2-9018-b054fd3fc1ce",
      "resource": {
        "resourceType": "Sequence",
        "text": {
          "div": "<div xmlns=\"http://hl7.org/fhir\">\n                        <pre>&quot;HLA-C*03:04:01:01, exon 2&quot;</pre>\n                    </div>"
        },
        "type": "DNA",
        "coordinateSystem": 0,
        "patient": {
          "reference": "Patient/119",
          "display": "Mary Chalmers"
        },
        "specimen": {
          "reference": "Specimen/120",
          "display": "buccal swab from Mary Chalmers"
        },
        "referenceSeq": {
          "referenceSeqId": {
            "coding": [
              {
                "system": "http://www.ebi.ac.uk/ipd/imgt/hla/",
                "version": "3.23",
                "code": "HLA00413"
              }
            ],
            "text": "HLA-C*03:04:01:01"
          },
          "windowStart": 486,
          "windowEnd": 756
        },
        "observedSeq": ""
      },
      "request": {
        "method": "POST",
        "url": "Sequence"
      }
    },
    {
      "fullUrl": "urn:uuid:19153ef1-68c6-47a2-9676-c4eefbd39af9",
      "resource": {
        "resourceType": "Sequence",
        "text": {
          "div": "<div xmlns=\"http://hl7.org/fhir\">\n                        <pre>&quot;HLA-C*03:04:01:01, exon 3&quot;</pre>\n                    </div>"
        },
        "type": "DNA",
        "coordinateSystem": 0,
        "patient": {
          "reference": "Patient/119",
          "display": "Mary Chalmers"
        },
        "specimen": {
          "reference": "Specimen/120",
          "display": "buccal swab from Mary Chalmers"
        },
        "referenceSeq": {
          "referenceSeqId": {
            "coding": [
              {
                "system": "http://www.ebi.ac.uk/ipd/imgt/hla/",
                "version": "3.23",
                "code": "HLA00413"
              }
            ],
            "text": "HLA-C*03:04:01:01"
          },
          "windowStart": 1001,
          "windowEnd": 1277
        },
        "observedSeq": ""
      },
      "request": {
        "method": "POST",
        "url": "Sequence"
      }
    },
    {
      "fullUrl": "urn:uuid:b7765bbf-df40-486a-9f2f-404309643de6",
      "resource": {
        "resourceType": "Observation",
        "text": {
          "div": "<div xmlns=\"http://hl7.org/fhir\"><pre>HLA-A:01:01:01G</pre></div>"
        },
        "status": "final",
        "code": {
          "coding": [
            {
              "system": "http://loinc.org",
              "code": "57290-9",
              "display": "HLA-A [Type] by High resolution"
            }
          ]
        },
        "subject": {
          "reference": "Patient/119",
          "display": "Mary Chalmers"
        },
        "effectiveDateTime": "2016-12-15",
        "specimen": {
          "reference": "Specimen/120",
          "display": "buccal swab from Mary Chalmers"
        },
        "extension": [
          {
            "url": "http://hl7.org/fhir/StructureDefinition/observation-geneticsGene",
            "valueCodeableConcept": {
              "coding": [
                {
                  "system": "http://www.genenames.org",
                  "code": "HGNC:4931",
                  "display": "HLA-A"
                }
              ]
            }
          },
          {
            "url": "http://hl7.org/fhir/StructureDefinition/observation-geneticsAlleleName",
            "valueString": "HLA-A*01:01:01G"
          },
          {
            "url": "http://hl7.org/fhir/StructureDefinition/observation-geneticsGenomicSourceClass",
            "valueCodeableConcept": {
              "coding": [
                {
                  "system": "http://hl7.org/fhir/LOINC-48002-0-answerlist",
                  "code": "LA6683-2",
                  "display": "germline"
                }
              ]
            }
          },
          {
            "url": "http://hl7.org/fhir/StructureDefinition/observation-geneticsPhaseSet",
            "valueUri": "urn:uuid:e13f147e-41e5-4f7a-b20a-1b52b236c5ba"
          }
        ],
        "related": [
          {
            "type": "derived-from",
            "target": {
              "reference": "urn:uuid:8200dab6-18a2-4550-b913-a7db480c0804",
              "display": "HLA-A*01:01:01:01, exon 2"
            }
          },
          {
            "type": "derived-from",
            "target": {
              "reference": "urn:uuid:7c393185-f15c-45bc-a714-c0fdbea32675",
              "display": "HLA-A*01:01:01:01, exon 3"
            }
          }
        ]
      },
      "request": {
        "method": "POST",
        "url": "Observation"
      }
    },
    {
      "fullUrl": "urn:uuid:d98d92a7-0e86-4ae5-b036-b7e1bba6ec32",
      "resource": {
        "resourceType": "Observation",
        "text": {
          "div": "<div xmlns=\"http://hl7.org/fhir\"><pre>HLA-A*01:02</pre></div>"
        },
        "status": "final",
        "code": {
          "coding": [
            {
              "system": "http://loinc.org",
              "code": "57290-9",
              "display": "HLA-A [Type] by High resolution"
            }
          ]
        },
        "subject": {
          "reference": "Patient/119",
          "display": "Mary Chalmers"
        },
        "effectiveDateTime": "2016-12-15",
        "specimen": {
          "reference": "Specimen/120",
          "display": "buccal swab from Mary Chalmers"
        },
        "extension": [
          {
            "url": "http://hl7.org/fhir/StructureDefinition/observation-geneticsGene",
            "valueCodeableConcept": {
              "coding": [
                {
                  "system": "http://www.genenames.org",
                  "code": "HGNC:4931",
                  "display": "HLA-A"
                }
              ]
            }
          },
          {
            "url": "http://hl7.org/fhir/StructureDefinition/observation-geneticsAlleleName",
            "valueString": "HLA-A*01:02"
          },
          {
            "url": "http://hl7.org/fhir/StructureDefinition/observation-geneticsGenomicSourceClass",
            "valueCodeableConcept": {
              "coding": [
                {
                  "system": "http://hl7.org/fhir/LOINC-48002-0-answerlist",
                  "code": "LA6683-2",
                  "display": "germline"
                }
              ]
            }
          },
          {
            "url": "http://hl7.org/fhir/StructureDefinition/observation-geneticsPhaseSet",
            "valueUri": "urn:uuid:af8e79ec-343e-4380-ba65-cec5266dc2d5"
          }
        ],
        "related": [
          {
            "type": "derived-from",
            "target": {
              "reference": "urn:uuid:65c85f14-c3a0-4b72-818f-820e04fcc621",
              "display": "HLA-A*01:02, exon 2"
            }
          },
          {
            "type": "derived-from",
            "target": {
              "reference": "urn:uuid:fbba9fe7-0ece-4ec1-9233-a437a8d242a0",
              "display": "HLA-A*01:02, exon 3"
            }
          }
        ]
      },
      "request": {
        "method": "POST",
        "url": "Observation"
      }
    },
    {
      "fullUrl": "urn:uuid:49a86246-4004-42eb-9bdc-f542f93f9228",
      "resource": {
        "resourceType": "Observation",
        "text": {
          "div": "<div xmlns=\"http://hl7.org/fhir\"><pre>HLA-A:01:01G+HLA-A*01:02</pre></div>"
        },
        "status": "final",
        "code": {
          "coding": [
            {
              "system": "http://loinc.org",
              "code": "57290-9",
              "display": "HLA-A [Type] by High resolution"
            }
          ]
        },
        "subject": {
          "reference": "Patient/119",
          "display": "Mary Chalmers"
        },
        "effectiveDateTime": "2016-12-15",
        "specimen": {
          "reference": "Specimen/120",
          "display": "buccal swab from Mary Chalmers"
        },
        "extension": [
          {
            "url": "http://hl7.org/fhir/StructureDefinition/observation-geneticsGene",
            "valueCodeableConcept": {
              "coding": [
                {
                  "system": "http://www.genenames.org",
                  "code": "HGNC:4931",
                  "display": "HLA-A"
                }
              ]
            }
          },
          {
            "url": "http://hl7.org/fhir/StructureDefinition/observation-geneticsGenomicSourceClass",
            "valueCodeableConcept": {
              "coding": [
                {
                  "system": "http://hl7.org/fhir/LOINC-48002-0-answerlist",
                  "code": "LA6683-2",
                  "display": "germline"
                }
              ]
            }
          }
        ],
        "related": [
          {
            "type": "derived-from",
            "target": {
              "reference": "urn:uuid:b7765bbf-df40-486a-9f2f-404309643de6",
              "display": "HLA-A*01:01:01G, exons 2 and 3"
            }
          },
          {
            "type": "derived-from",
            "target": {
              "reference": "urn:uuid:d98d92a7-0e86-4ae5-b036-b7e1bba6ec32",
              "display": "HLA-A*01:02, exons 2 and 3"
            }
          }
        ]
      },
      "request": {
        "method": "POST",
        "url": "Observation"
      }
    },
    {
      "fullUrl": "urn:uuid:e2092243-2970-49d2-a90f-b90d1d49715a",
      "resource": {
        "resourceType": "Observation",
        "text": {
          "div": "<div xmlns=\"http://hl7.org/fhir\"><pre>HLA-B*15:01:01G</pre></div>"
        },
        "status": "final",
        "code": {
          "coding": [
            {
              "system": "http://loinc.org",
              "code": "57291-7",
              "display": "HLA-B [Type] by High resolution"
            }
          ]
        },
        "subject": {
          "reference": "Patient/119",
          "display": "Mary Chalmers"
        },
        "effectiveDateTime": "2016-12-15",
        "specimen": {
          "reference": "Specimen/120",
          "display": "buccal swab from Mary Chalmers"
        },
        "extension": [
          {
            "url": "http://hl7.org/fhir/StructureDefinition/observation-geneticsGene",
            "valueCodeableConcept": {
              "coding": [
                {
                  "system": "http://www.genenames.org",
                  "code": "HGNC:4932",
                  "display": "HLA-B"
                }
              ]
            }
          },
          {
            "url": "http://hl7.org/fhir/StructureDefinition/observation-geneticsAlleleName",
            "valueString": "HLA-B*15:01:01G"
          },
          {
            "url": "http://hl7.org/fhir/StructureDefinition/observation-geneticsGenomicSourceClass",
            "valueCodeableConcept": {
              "coding": [
                {
                  "system": "http://hl7.org/fhir/LOINC-48002-0-answerlist",
                  "code": "LA6683-2",
                  "display": "germline"
                }
              ]
            }
          },
          {
            "url": "http://hl7.org/fhir/StructureDefinition/observation-geneticsPhaseSet",
            "valueUri": "urn:uuid:29c67a1b-aeaa-4599-ae20-04b947ef73d8"
          }
        ],
        "related": [
          {
            "type": "derived-from",
            "target": {
              "reference": "urn:uuid:cbabf93e-1b4b-46f2-ba1e-d84862670670",
              "display": "HLA-B*15:01:01:01, exon 2"
            }
          },
          {
            "type": "derived-from",
            "target": {
              "reference": "urn:uuid:c233ad3d-1572-48d6-93da-0a583535e138",
              "display": "HLA-B*15:01:01:01, exon 3"
            }
          }
        ]
      },
      "request": {
        "method": "POST",
        "url": "Observation"
      }
    },
    {
      "fullUrl": "urn:uuid:792be53e-d4fb-4887-a367-815ef6c706e5",
      "resource": {
        "resourceType": "Observation",
        "text": {
          "div": "<div xmlns=\"http://hl7.org/fhir\"><pre>HLA-B*57:01:01G</pre></div>"
        },
        "status": "final",
        "code": {
          "coding": [
            {
              "system": "http://loinc.org",
              "code": "57291-7",
              "display": "HLA-B [Type] by High resolution"
            }
          ]
        },
        "subject": {
          "reference": "Patient/119",
          "display": "Mary Chalmers"
        },
        "effectiveDateTime": "2016-12-15",
        "specimen": {
          "reference": "Specimen/120",
          "display": "buccal swab from Mary Chalmers"
        },
        "extension": [
          {
            "url": "http://hl7.org/fhir/StructureDefinition/observation-geneticsGene",
            "valueCodeableConcept": {
              "coding": [
                {
                  "system": "http://www.genenames.org",
                  "code": "HGNC:4932",
                  "display": "HLA-B"
                }
              ]
            }
          },
          {
            "url": "http://hl7.org/fhir/StructureDefinition/observation-geneticsAlleleName",
            "valueString": "HLA-B*57:01:01G"
          },
          {
            "url": "http://hl7.org/fhir/StructureDefinition/observation-geneticsGenomicSourceClass",
            "valueCodeableConcept": {
              "coding": [
                {
                  "system": "http://hl7.org/fhir/LOINC-48002-0-answerlist",
                  "code": "LA6683-2",
                  "display": "germline"
                }
              ]
            }
          },
          {
            "url": "http://hl7.org/fhir/StructureDefinition/observation-geneticsPhaseSet",
            "valueUri": "urn:uuid:a19a3557-b36c-4b35-ab8b-4783022066b9"
          }
        ],
        "related": [
          {
            "type": "derived-from",
            "target": {
              "reference": "urn:uuid:05fa52d7-5c67-460a-8722-d3460b24d6fe",
              "display": "HLA-B*57:01:01, exon 2"
            }
          },
          {
            "type": "derived-from",
            "target": {
              "reference": "urn:uuid:db69e549-6267-4777-b4b9-8813f3329309",
              "display": "HLA-B*57:01:01, exon 3"
            }
          }
        ]
      },
      "request": {
        "method": "POST",
        "url": "Observation"
      }
    },
    {
      "fullUrl": "urn:uuid:60613a43-c4cb-4502-b3e2-cf9215feaa70",
      "resource": {
        "resourceType": "Observation",
        "text": {
          "div": "<div xmlns=\"http://hl7.org/fhir\"><pre>HLA-B*15:01:01G+HLA-B*57:01:01G</pre></div>"
        },
        "status": "final",
        "code": {
          "coding": [
            {
              "system": "http://loinc.org",
              "code": "57291-7",
              "display": "HLA-B [Type] by High resolution"
            }
          ]
        },
        "subject": {
          "reference": "Patient/119",
          "display": "Mary Chalmers"
        },
        "effectiveDateTime": "2016-12-15",
        "specimen": {
          "reference": "Specimen/120",
          "display": "buccal swab from Mary Chalmers"
        },
        "extension": [
          {
            "url": "http://hl7.org/fhir/StructureDefinition/observation-geneticsGene",
            "valueCodeableConcept": {
              "coding": [
                {
                  "system": "http://www.genenames.org",
                  "code": "HGNC:4932",
                  "display": "HLA-B"
                }
              ]
            }
          },
          {
            "url": "http://hl7.org/fhir/StructureDefinition/observation-geneticsGenomicSourceClass",
            "valueCodeableConcept": {
              "coding": [
                {
                  "system": "http://hl7.org/fhir/LOINC-48002-0-answerlist",
                  "code": "LA6683-2",
                  "display": "germline"
                }
              ]
            }
          }
        ],
        "related": [
          {
            "type": "derived-from",
            "target": {
              "reference": "urn:uuid:e2092243-2970-49d2-a90f-b90d1d49715a",
              "display": "HLA-B*15:01:01G, exons 2 and 3"
            }
          },
          {
            "type": "derived-from",
            "target": {
              "reference": "urn:uuid:792be53e-d4fb-4887-a367-815ef6c706e5",
              "display": "HLA-B*57:01:01G, exons 2 and 3"
            }
          }
        ]
      },
      "request": {
        "method": "POST",
        "url": "Observation"
      }
    },
    {
      "fullUrl": "urn:uuid:709c5315-9403-4867-9d82-0b953836665f",
      "resource": {
        "resourceType": "Observation",
        "text": {
          "div": "<div xmlns=\"http://hl7.org/fhir\"><pre>HLA-C*01:02:01</pre></div>"
        },
        "status": "final",
        "code": {
          "coding": [
            {
              "system": "http://loinc.org",
              "code": "77636-9",
              "display": "HLA-C [Type] by High resolution"
            }
          ]
        },
        "subject": {
          "reference": "Patient/119",
          "display": "Mary Chalmers"
        },
        "effectiveDateTime": "2016-12-15",
        "specimen": {
          "reference": "Specimen/120",
          "display": "buccal swab from Mary Chalmers"
        },
        "extension": [
          {
            "url": "http://hl7.org/fhir/StructureDefinition/observation-geneticsGene",
            "valueCodeableConcept": {
              "coding": [
                {
                  "system": "http://www.genenames.org",
                  "code": "HGNC:4933",
                  "display": "HLA-C"
                }
              ]
            }
          },
          {
            "url": "http://hl7.org/fhir/StructureDefinition/observation-geneticsAlleleName",
            "valueString": "HLA-C*01:02:01"
          },
          {
            "url": "http://hl7.org/fhir/StructureDefinition/observation-geneticsGenomicSourceClass",
            "valueCodeableConcept": {
              "coding": [
                {
                  "system": "http://hl7.org/fhir/LOINC-48002-0-answerlist",
                  "code": "LA6683-2",
                  "display": "germline"
                }
              ]
            }
          },
          {
            "url": "http://hl7.org/fhir/StructureDefinition/observation-geneticsPhaseSet",
            "valueUri": "urn:uuid:79383455-4f55-4126-bcc2-03385cad7944"
          }
        ],
        "related": [
          {
            "type": "derived-from",
            "target": {
              "reference": "urn:uuid:bb55c2bc-5ad2-4bc1-8ff3-c407d06b12d0",
              "display": "HLA-C*01:02:01, exon 2"
            }
          },
          {
            "type": "derived-from",
            "target": {
              "reference": "urn:uuid:46938bb2-0486-4e87-bfd3-89aab2d5e22f",
              "display": "HLA-C*01:02:01, exon 3"
            }
          }
        ]
      },
      "request": {
        "method": "POST",
        "url": "Observation"
      }
    },
    {
      "fullUrl": "urn:uuid:8b2aa21c-1426-4717-8ab0-a84d83df7d47",
      "resource": {
        "resourceType": "Observation",
        "text": {
          "div": "<div xmlns=\"http://hl7.org/fhir\"><pre>HLA-C*03:04:01:01</pre></div>"
        },
        "status": "final",
        "code": {
          "coding": [
            {
              "system": "http://loinc.org",
              "code": "77636-9",
              "display": "HLA-C [Type] by High resolution"
            }
          ]
        },
        "subject": {
          "reference": "Patient/119",
          "display": "Mary Chalmers"
        },
        "effectiveDateTime": "2016-12-15",
        "specimen": {
          "reference": "Specimen/120",
          "display": "buccal swab from Mary Chalmers"
        },
        "extension": [
          {
            "url": "http://hl7.org/fhir/StructureDefinition/observation-geneticsGene",
            "valueCodeableConcept": {
              "coding": [
                {
                  "system": "http://www.genenames.org",
                  "code": "HGNC:4933",
                  "display": "HLA-C"
                }
              ]
            }
          },
          {
            "url": "http://hl7.org/fhir/StructureDefinition/observation-geneticsAlleleName",
            "valueString": "HLA-C*03:04:01:01"
          },
          {
            "url": "http://hl7.org/fhir/StructureDefinition/observation-geneticsGenomicSourceClass",
            "valueCodeableConcept": {
              "coding": [
                {
                  "system": "http://hl7.org/fhir/LOINC-48002-0-answerlist",
                  "code": "LA6683-2",
                  "display": "germline"
                }
              ]
            }
          },
          {
            "url": "http://hl7.org/fhir/StructureDefinition/observation-geneticsPhaseSet",
            "valueUri": "urn:uuid:a220b7a5-2d7a-4cec-a5b1-bfcf5890e391"
          }
        ],
        "related": [
          {
            "type": "derived-from",
            "target": {
              "reference": "urn:uuid:2ae2ff34-279e-43c2-9018-b054fd3fc1ce",
              "display": "HLA-C*03:04:01:01, exon 2"
            }
          },
          {
            "type": "derived-from",
            "target": {
              "reference": "urn:uuid:19153ef1-68c6-47a2-9676-c4eefbd39af9",
              "display": "HLA-C*03:04:01:01, exon 3"
            }
          }
        ]
      },
      "request": {
        "method": "POST",
        "url": "Observation"
      }
    },
    {
      "fullUrl": "urn:uuid:0e0a780e-4486-4cd0-bfae-7243c579f208",
      "resource": {
        "resourceType": "Observation",
        "text": {
          "div": "<div xmlns=\"http://hl7.org/fhir\"><pre>HLA-C*01:02:01G+HLA-C*03:04:01G</pre></div>"
        },
        "status": "final",
        "code": {
          "coding": [
            {
              "system": "http://loinc.org",
              "code": "77636-9",
              "display": "HLA-C [Type] by High resolution"
            }
          ]
        },
        "subject": {
          "reference": "Patient/119",
          "display": "Mary Chalmers"
        },
        "effectiveDateTime": "2016-12-15",
        "specimen": {
          "reference": "Specimen/120",
          "display": "buccal swab from Mary Chalmers"
        },
        "extension": [
          {
            "url": "http://hl7.org/fhir/StructureDefinition/observation-geneticsGene",
            "valueCodeableConcept": {
              "coding": [
                {
                  "system": "http://www.genenames.org",
                  "code": "HGNC:4933",
                  "display": "HLA-C"
                }
              ]
            }
          },
          {
            "url": "http://hl7.org/fhir/StructureDefinition/observation-geneticsGenomicSourceClass",
            "valueCodeableConcept": {
              "coding": [
                {
                  "system": "http://hl7.org/fhir/LOINC-48002-0-answerlist",
                  "code": "LA6683-2",
                  "display": "germline"
                }
              ]
            }
          }
        ],
        "related": [
          {
            "type": "derived-from",
            "target": {
              "reference": "urn:uuid:709c5315-9403-4867-9d82-0b953836665f",
              "display": "HLA-C*01:02:01G, exons 2 and 3"
            }
          },
          {
            "type": "derived-from",
            "target": {
              "reference": "urn:uuid:8b2aa21c-1426-4717-8ab0-a84d83df7d47",
              "display": "HLA-C*03:04:01G, exons 2 and 3"
            }
          }
        ]
      },
      "request": {
        "method": "POST",
        "url": "Observation"
      }
    },
    {
      "fullUrl": "urn:uuid:b0a4b18e-94e7-4b1b-8031-c7ae4bdd8db9",
      "resource": {
        "resourceType": "DiagnosticReport",
        "text": {
          "div": "<div xmlns=\"http://hl7.org/fhir\"><pre>\n        HLA-A,-B,-C genotyping report for Mary Chalmers (MRN:12345)\n        \n        LOCUS   ALLELE 1            ALLELE 2\n        HLA-A   HLA-A:01:01G        HLA-A*01:02\n        HLA-B   HLA-B*15:01:01G     HLA-B*57:01:01G\n        HLA-C   HLA-C*01:02:01G     HLA-C*03:04:01G\n        \n        Allele assignments based on IMGT/HLA 3.23\n        Effective date: 2015-12-15\n        Method: Sequencing of exons 2 and 3 of HLA Class I genes\n        Lab: aTypingLab Inc\n                    </pre></div>"
        },
        "status": "final",
        "request": [
          {
            "reference": "DiagnosticRequest/123"
          }
        ],
        "code": {
          "coding": [
            {
              "system": "http://loinc.org",
              "code": "13303-3",
              "display": "HLA-A+​B+​C (class I) [Type]"
            }
          ]
        },
        "category": {
          "coding": [
            {
              "system": "http://hl7.org/fhir/ValueSet/diagnostic-service-sections",
              "code": "GE",
              "display": "Genetics"
            }
          ]
        },
        "effectiveDateTime": "2016-12-15",
        "issued": "2016-12-15T14:15:30-06:00",
        "subject": {
          "reference": "Patient/119",
          "display": "Mary Chalmers"
        },
        "specimen": [
          {
            "reference": "Specimen/67",
            "display": "buccal swab from Mary Chalmers"
          }
        ],
        "performer": [
          {
            "reference": "Organization/68",
            "display": "aTypingLab Inc"
          }
        ],
        "result": [
          {
            "reference": "urn:uuid:49a86246-4004-42eb-9bdc-f542f93f9228",
            "display": "HLA-A: HLA-A:01:01G+HLA-A*01:02"
          },
          {
            "reference": "urn:uuid:60613a43-c4cb-4502-b3e2-cf9215feaa70",
            "display": "HLA-B: HLA-B*15:01:01G+HLA-B*57:01:01G"
          },
          {
            "reference": "urn:uuid:0e0a780e-4486-4cd0-bfae-7243c579f208",
            "display": "HLA-C: HLA-C*01:02:01G+HLA-C*03:04:01G"
          }
        ],
        "extension": [
          {
            "url": "http://hl7.org/fhir/StructureDefinition/hla-genotyping-resultsAlleleDatabase",
            "valueCodeableConcept": {
              "coding": [
                {
                  "system": "http://www.ebi.ac.uk/ipd/imgt/hla/",
                  "version": "3.23"
                }
              ]
            }
          },
          {
            "url": "http://hl7.org/fhir/StructureDefinition/hla-genotyping-resultsGlstring"
          },
          {}
        ]
      },
      "request": {
        "method": "POST",
        "url": "DiagnosticReport"
      }
    }
  ]
}