{
  "resourceType": "List",
  "id": "example-double-cousin-relationship",
  "contained": [
    {
      "resourceType": "FamilyMemberHistory",
      "id": "1",
      "meta": {
        "versionId": "7",
        "lastUpdated": "2016-09-23T10:55:14.739-04:00",
        "profile": [
          "http://hl7.org/fhir/StructureDefinition/familymemberhistory-genetic"
        ]
      },
      "text": {
        "status": "additional",
        "div": "<div xmlns=\"http://www.w3.org/1999/xhtml\">\n          <div>Natural mother who suffered Diabetes mellitus begin at the age 45</div>\n        </div>"
      },
      "patient": {
        "reference": "Patient/147051",
        "display": "Pam Taylor"
      },
      "status": "completed",
      "name": "Mary",
      "relationship": {
        "coding": [
          {
            "system": "http://hl7.org/fhir/v3/RoleCode",
            "code": "NMTH",
            "display": "natural mother"
          }
        ],
        "text": "natural mother"
      },
      "deceasedBoolean": true,
      "condition": [
        {
          "code": {
            "coding": [
              {
                "system": "http://snomed.info/sct",
                "code": "73211009",
                "display": "Diabetes mellitus"
              }
            ],
            "text": "Diabetes mellitus"
          },
          "onsetAge": {
            "value": 45,
            "unit": "yr",
            "system": "http://unitsofmeasure.org",
            "code": "a"
          }
        }
      ]
    },
    {
      "resourceType": "FamilyMemberHistory",
      "id": "2",
      "meta": {
        "versionId": "4",
        "lastUpdated": "2016-09-23T08:06:14.691-04:00",
        "profile": [
          "http://hl7.org/fhir/StructureDefinition/familymemberhistory-genetic"
        ]
      },
      "text": {
        "status": "additional",
        "div": "<div xmlns=\"http://www.w3.org/1999/xhtml\">\n          <div>paternal uncle with Diabetes mellitus type 2 without retinopathy onset at age 35</div>\n        </div>"
      },
      "patient": {
        "reference": "Patient/147051",
        "display": "Pam Taylor"
      },
      "status": "completed",
      "name": "Bob",
      "relationship": {
        "coding": [
          {
            "system": "http://hl7.org/fhir/v3/RoleCode",
            "code": "PUNCLE",
            "display": "paternal uncle"
          }
        ],
        "text": "paternal uncle"
      },
      "condition": [
        {
          "code": {
            "coding": [
              {
                "system": "http://snomed.info/sct",
                "code": "1481000119100",
                "display": "Diabetes mellitus type 2 without retinopathy"
              }
            ],
            "text": "Diabetes mellitus type 2 without retinopathy"
          },
          "onsetAge": {
            "value": 35,
            "unit": "yr",
            "system": "http://unitsofmeasure.org",
            "code": "a"
          }
        }
      ]
    },
    {
      "resourceType": "FamilyMemberHistory",
      "id": "3",
      "meta": {
        "versionId": "4",
        "lastUpdated": "2016-09-21T20:32:50.318-04:00",
        "profile": [
          "http://hl7.org/fhir/StructureDefinition/familymemberhistory-genetic"
        ]
      },
      "text": {
        "status": "generated",
        "div": "<div xmlns=\"http://www.w3.org/1999/xhtml\">\n          <div>maternal uncle</div>\n        </div>"
      },
      "patient": {
        "reference": "Patient/147051",
        "display": "Pam Taylor"
      },
      "status": "completed",
      "name": "Jon",
      "relationship": {
        "coding": [
          {
            "system": "http://hl7.org/fhir/v3/RoleCode",
            "code": "MUNCLE",
            "display": "maternal uncle"
          }
        ],
        "text": "maternal uncle"
      }
    },
    {
      "resourceType": "FamilyMemberHistory",
      "id": "4",
      "meta": {
        "versionId": "4",
        "lastUpdated": "2016-09-21T20:30:46.027-04:00",
        "profile": [
          "http://hl7.org/fhir/StructureDefinition/familymemberhistory-genetic"
        ]
      },
      "text": {
        "status": "additional",
        "div": "<div xmlns=\"http://www.w3.org/1999/xhtml\">\n          <div>Maternal grandmother who is paternal grandmonther's sibling at the age 70</div>\n        </div>"
      },
      "patient": {
        "reference": "Patient/147051",
        "display": "Pam Taylor"
      },
      "status": "completed",
      "name": "Alica",
      "relationship": {
        "coding": [
          {
            "system": "http://hl7.org/fhir/v3/RoleCode",
            "code": "MSMGRMTH",
            "display": "maternal grandmother who is paternal grandmother's sibling"
          }
        ],
        "text": "maternal grandmother who is paternal grandmother's sibling"
      },
      "ageAge": {
        "value": 70,
        "unit": "yr",
        "system": "http://unitsofmeasure.org",
        "code": "a"
      }
    },
    {
      "resourceType": "FamilyMemberHistory",
      "id": "5",
      "meta": {
        "versionId": "1",
        "lastUpdated": "2016-09-23T08:37:26.453-04:00",
        "profile": [
          "http://hl7.org/fhir/StructureDefinition/familymemberhistory-genetic"
        ]
      },
      "text": {
        "status": "generated",
        "div": "<div xmlns=\"http://www.w3.org/1999/xhtml\">\n          <div>maternal aunt</div>\n        </div>"
      },
      "extension": [
        {
          "url": "http://hl7.org/fhir/StructureDefinition/family-member-history-genetics-parent",
          "extension": [
            {
              "url": "type",
              "valueCodeableConcept": {
                "text": "mother"
              }
            },
            {
              "url": "identifier",
              "valueReference": {
                "reference": "FamilyMemberHistory/147146",
                "display": "maternal grandmother who is paternal grandmonther's sibling"
              }
            }
          ]
        }
      ],
      "patient": {
        "reference": "Patient/147051",
        "display": "Pam Taylor"
      },
      "status": "completed",
      "name": "Aunt with Parent ID",
      "relationship": {
        "coding": [
          {
            "system": "http://hl7.org/fhir/v3/RoleCode",
            "code": "MAUNT",
            "display": "maternal aunt"
          }
        ],
        "text": "maternal aunt"
      },
      "gender": "female",
      "ageAge": {
        "value": 55,
        "unit": "yr",
        "system": "http://unitsofmeasure.org",
        "code": "a"
      }
    },
    {
      "resourceType": "FamilyMemberHistory",
      "id": "6",
      "meta": {
        "versionId": "4",
        "lastUpdated": "2016-09-21T20:30:46.027-04:00",
        "profile": [
          "http://hl7.org/fhir/StructureDefinition/familymemberhistory-genetic"
        ]
      },
      "text": {
        "status": "additional",
        "div": "<div xmlns=\"http://www.w3.org/1999/xhtml\">\n          <div>Paternal grandfather who is maternal grandfather's sibling at the age 70</div>\n        </div>"
      },
      "patient": {
        "reference": "Patient/147051",
        "display": "Pam Taylor"
      },
      "status": "completed",
      "name": "Paul",
      "relationship": {
        "coding": [
          {
            "system": "http://hl7.org/fhir/v3/RoleCode",
            "code": "FSPGRFTH",
            "display": "Paternal grandfather who is maternal grandfather's sibling"
          }
        ],
        "text": "Paternal grandfather who is maternal grandfather's sibling"
      },
      "ageAge": {
        "value": 74,
        "unit": "yr",
        "system": "http://unitsofmeasure.org",
        "code": "b"
      }
    }
  ],
  "meta": {
    "versionId": "1",
    "lastUpdated": "2016-09-21T18:55:36.552-04:00"
  },
  "text": {
    "status": "generated",
    "div": "<div xmlns=\"http://www.w3.org/1999/xhtml\">Pam Taylor</div>"
  },
  "status": "current",
  "mode": "snapshot",
  "code": {
    "coding": [
      {
        "system": "http://loinc.org",
        "code": "80738-8",
        "display": "TPMT gene mutations found [Identifier] in Blood or Tissue by Sequencing Nominal"
      }
    ],
    "text": "TPMT gene mutations found [Identifier] in Blood or Tissue by Sequencing Nominal"
  },
  "subject": {
    "reference": "Patient/147051",
    "display": "Pam Taylor"
  },
  "entry": [
    {
      "item": {
        "reference": "#1"
      }
    },
    {
      "item": {
        "reference": "#2"
      }
    },
    {
      "item": {
        "reference": "#3"
      }
    },
    {
      "item": {
        "reference": "#4"
      }
    },
    {
      "item": {
        "reference": "#5"
      }
    },
    {
      "item": {
        "reference": "#6"
      }
    }
  ]
}