<?xml version="1.0" encoding="UTF-8"?><List xmlns="http://hl7.org/fhir">
  <id value="example-double-cousin-relationship"/>
  <contained>
    <FamilyMemberHistory>
      <id value="1"/>
      <!-- 2.Just to keep the patient example compelete, you can delete it if needed. -->
      <meta>
        <versionId value="7"/>
        <lastUpdated value="2016-09-23T10:55:14.739-04:00"/>
        <profile value="http://hl7.org/fhir/StructureDefinition/familymemberhistory-genetic"/>
      </meta>
      <text>
        <status value="additional"/>
        <div xmlns="http://www.w3.org/1999/xhtml">
          <div>Natural mother who suffered Diabetes mellitus begin at the age 45</div>
        </div>
      </text>
      <!-- END-2. -->
      <patient>
        <reference value="Patient/147051"/>
        <display value="Pam Taylor"/>
      </patient>
      <status value="completed"/>
      <name value="Mary"/>
      <relationship>
        <coding>
          <system value="http://hl7.org/fhir/v3/RoleCode"/>
          <code value="NMTH"/>
          <display value="natural mother"/>
        </coding>
        <text value="natural mother"/>
      </relationship>
      <deceasedBoolean value="true"/>
      <condition>
        <code>
          <coding>
            <system value="http://snomed.info/sct"/>
            <code value="73211009"/>
            <display value="Diabetes mellitus"/>
          </coding>
          <text value="Diabetes mellitus"/>
        </code>
        <onsetAge>
          <value value="45"/>
          <unit value="yr"/>
          <system value="http://unitsofmeasure.org"/>
          <code value="a"/>
        </onsetAge>
      </condition>
    </FamilyMemberHistory>
  </contained>
  <contained>
    <FamilyMemberHistory>
      <id value="2"/>
      <!-- 3.Just to keep the patient example compelete, you can delete it if needed. -->
      <meta>
        <versionId value="4"/>
        <lastUpdated value="2016-09-23T08:06:14.691-04:00"/>
        <profile value="http://hl7.org/fhir/StructureDefinition/familymemberhistory-genetic"/>
      </meta>
      <text>
        <status value="additional"/>
        <div xmlns="http://www.w3.org/1999/xhtml">
          <div>paternal uncle with Diabetes mellitus type 2 without retinopathy onset at age 35</div>
        </div>
      </text>
      <!-- END-3. -->
      <patient>
        <reference value="Patient/147051"/>
        <display value="Pam Taylor"/>
      </patient>
      <status value="completed"/>
      <name value="Bob"/>
      <relationship>
        <coding>
          <system value="http://hl7.org/fhir/v3/RoleCode"/>
          <code value="PUNCLE"/>
          <display value="paternal uncle"/>
        </coding>
        <text value="paternal uncle"/>
      </relationship>
      <condition>
        <code>
          <coding>
            <system value="http://snomed.info/sct"/>
            <code value="1481000119100"/>
            <display value="Diabetes mellitus type 2 without retinopathy"/>
          </coding>
          <text value="Diabetes mellitus type 2 without retinopathy"/>
        </code>
        <onsetAge>
          <value value="35"/>
          <unit value="yr"/>
          <system value="http://unitsofmeasure.org"/>
          <code value="a"/>
        </onsetAge>
      </condition>
    </FamilyMemberHistory>
  </contained>
  <contained>
    <FamilyMemberHistory>
      <id value="3"/>
      <!-- 4.Just to keep the patient example compelete, you can delete it if needed. -->
      <meta>
        <versionId value="4"/>
        <lastUpdated value="2016-09-21T20:32:50.318-04:00"/>
        <profile value="http://hl7.org/fhir/StructureDefinition/familymemberhistory-genetic"/>
      </meta>
      <text>
        <status value="generated"/>
        <div xmlns="http://www.w3.org/1999/xhtml">
          <div>maternal uncle</div>
        </div>
      </text>
      <!-- END-4. -->
      <patient>
        <reference value="Patient/147051"/>
        <display value="Pam Taylor"/>
      </patient>
      <status value="completed"/>
      <name value="Jon"/>
      <relationship>
        <coding>
          <system value="http://hl7.org/fhir/v3/RoleCode"/>
          <code value="MUNCLE"/>
          <display value="maternal uncle"/>
        </coding>
        <text value="maternal uncle"/>
      </relationship>
    </FamilyMemberHistory>
  </contained>
  <contained>
    <FamilyMemberHistory>
      <id value="4"/>
      <!-- 5.Just to keep the patient example compelete, you can delete it if needed. -->
      <meta>
        <versionId value="4"/>
        <lastUpdated value="2016-09-21T20:30:46.027-04:00"/>
        <profile value="http://hl7.org/fhir/StructureDefinition/familymemberhistory-genetic"/>
      </meta>
      <text>
        <status value="additional"/>
        <div xmlns="http://www.w3.org/1999/xhtml">
          <div>Maternal grandmother who is paternal grandmonther&#39;s sibling at the age 70</div>
        </div>
      </text>
      <!-- END-5 -->
      <patient>
        <reference value="Patient/147051"/>
        <display value="Pam Taylor"/>
      </patient>
      <status value="completed"/>
      <name value="Alica"/>
      <!-- This is a new relationship that here is a maternal grandmother who is paternal grandmonther's sibling  -->
      <relationship>
        <coding>
          <system value="http://hl7.org/fhir/v3/RoleCode"/>
          <code value="MSMGRMTH"/>
          <display value="maternal grandmother who is paternal grandmother&#39;s sibling"/>
        </coding>
        <text value="maternal grandmother who is paternal grandmother&#39;s sibling"/>
      </relationship>
      <ageAge>
        <value value="70"/>
        <unit value="yr"/>
        <system value="http://unitsofmeasure.org"/>
        <code value="a"/>
      </ageAge>
    </FamilyMemberHistory>
  </contained>
  <contained>
    <FamilyMemberHistory>
      <id value="5"/>
      <!-- 6.Just to keep the patient example compelete, you can delete it if needed. -->
      <meta>
        <versionId value="1"/>
        <lastUpdated value="2016-09-23T08:37:26.453-04:00"/>
        <profile value="http://hl7.org/fhir/StructureDefinition/familymemberhistory-genetic"/>
      </meta>
      <text>
        <status value="generated"/>
        <div xmlns="http://www.w3.org/1999/xhtml">
          <div>maternal aunt</div>
        </div>
      </text>
      <!-- END-6 -->
      <extension url="http://hl7.org/fhir/StructureDefinition/family-member-history-genetics-parent">
        <extension url="type">
          <valueCodeableConcept>
            <text value="mother"/>
          </valueCodeableConcept>
        </extension>
        <extension url="identifier">
          <valueReference>
            <reference value="FamilyMemberHistory/147146"/>
            <display value="maternal grandmother who is paternal grandmonther&#39;s sibling"/>
          </valueReference>
        </extension>
      </extension>
      <patient>
        <reference value="Patient/147051"/>
        <display value="Pam Taylor"/>
      </patient>
      <status value="completed"/>
      <name value="Aunt with Parent ID"/>
      <relationship>
        <coding>
          <system value="http://hl7.org/fhir/v3/RoleCode"/>
          <code value="MAUNT"/>
          <display value="maternal aunt"/>
        </coding>
        <text value="maternal aunt"/>
      </relationship>
      <gender value="female"/>
      <ageAge>
        <value value="55"/>
        <unit value="yr"/>
        <system value="http://unitsofmeasure.org"/>
        <code value="a"/>
      </ageAge>
    </FamilyMemberHistory>
  </contained>
  <contained>
    <FamilyMemberHistory>
      <id value="6"/>
      <!-- 7.Just to keep the patient example compelete, you can delete it if needed. -->
      <meta>
        <versionId value="4"/>
        <lastUpdated value="2016-09-21T20:30:46.027-04:00"/>
        <profile value="http://hl7.org/fhir/StructureDefinition/familymemberhistory-genetic"/>
      </meta>
      <text>
        <status value="additional"/>
        <div xmlns="http://www.w3.org/1999/xhtml">
          <div>Paternal grandfather who is maternal grandfather&#39;s sibling at the age 70</div>
        </div>
      </text>
      <!-- END-7 -->
      <patient>
        <reference value="Patient/147051"/>
        <display value="Pam Taylor"/>
      </patient>
      <status value="completed"/>
      <name value="Paul"/>
      <!-- This is a new relationship that here is a maternal grandmother who is paternal grandmonther's sibling  -->
      <relationship>
        <coding>
          <system value="http://hl7.org/fhir/v3/RoleCode"/>
          <code value="FSPGRFTH"/>
          <display value="Paternal grandfather who is maternal grandfather&#39;s sibling"/>
        </coding>
        <text value="Paternal grandfather who is maternal grandfather&#39;s sibling"/>
      </relationship>
      <ageAge>
        <value value="74"/>
        <unit value="yr"/>
        <system value="http://unitsofmeasure.org"/>
        <code value="b"/>
      </ageAge>
    </FamilyMemberHistory>
  </contained>
  <!-- 1.Just to keep the patient example compelete, you can delete it if needed. -->
  <meta>
    <versionId value="1"/>
    <lastUpdated value="2016-09-21T18:55:36.552-04:00"/>
  </meta>
  <text>
    <status value="generated"/>
    <div xmlns="http://www.w3.org/1999/xhtml">Pam Taylor</div>
  </text>
  <name>
    <use value="official"/>
    <text value="Pam Taylor"/>
    <family value="Taylor"/>
    <given value="Pam"/>
  </name>
  <gender value="female"/>
  <birthDate value="1967-01-01"/>
  <!-- END-1. -->
  <status value="current"/>
  <mode value="snapshot"/>
  <code>
    <coding>
      <system value="http://loinc.org"/>
      <code value="80738-8"/>
      <display value="TPMT gene mutations found [Identifier] in Blood or Tissue by Sequencing Nominal"/>
    </coding>
    <text value="TPMT gene mutations found [Identifier] in Blood or Tissue by Sequencing Nominal"/>
  </code>
  <subject>
    <reference value="Patient/147051"/>
    <display value="Pam Taylor"/>
  </subject>
  <entry>
    <item>
      <reference value="#1"/>
    </item>
  </entry>
  <entry>
    <item>
      <reference value="#2"/>
    </item>
  </entry>
  <entry>
    <item>
      <reference value="#3"/>
    </item>
  </entry>
  <entry>
    <item>
      <reference value="#4"/>
    </item>
  </entry>
  <entry>
    <item>
      <reference value="#5"/>
    </item>
  </entry>
  <entry>
    <item>
      <reference value="#6"/>
    </item>
  </entry>
</List>